{
    "IRAC 1": {
        "transmittance": [
            0.001538,
            0.001477,
            0.001408,
            0.001385,
            0.001344,
            0.001444,
            0.00153,
            0.001311,
            0.001313,
            0.001518,
            0.001412,
            0.001458,
            0.001659,
            0.001635,
            0.001822,
            0.002101,
            0.002365,
            0.002984,
            0.003447,
            0.003806,
            0.004785,
            0.005947,
            0.006984,
            0.008359,
            0.01028,
            0.01257,
            0.01528,
            0.01853,
            0.02239,
            0.02727,
            0.03289,
            0.03917,
            0.04653,
            0.05469,
            0.0638,
            0.07414,
            0.08539,
            0.09806,
            0.1118,
            0.1258,
            0.141,
            0.157,
            0.1734,
            0.1904,
            0.2074,
            0.225,
            0.242,
            0.258,
            0.2751,
            0.2912,
            0.3054,
            0.3188,
            0.3319,
            0.342,
            0.3497,
            0.3584,
            0.3646,
            0.3671,
            0.3695,
            0.3715,
            0.3714,
            0.3698,
            0.3686,
            0.3662,
            0.3616,
            0.3586,
            0.357,
            0.3544,
            0.3521,
            0.3496,
            0.3474,
            0.3468,
            0.3474,
            0.3482,
            0.347,
            0.3474,
            0.3502,
            0.3511,
            0.3527,
            0.3556,
            0.3581,
            0.3621,
            0.3656,
            0.3686,
            0.3721,
            0.376,
            0.3811,
            0.3852,
            0.3883,
            0.3929,
            0.3972,
            0.4011,
            0.4053,
            0.4081,
            0.4104,
            0.4123,
            0.4132,
            0.4147,
            0.4168,
            0.417,
            0.4169,
            0.4168,
            0.4156,
            0.4154,
            0.4143,
            0.412,
            0.4104,
            0.4095,
            0.409,
            0.4076,
            0.4064,
            0.4059,
            0.4036,
            0.4033,
            0.4043,
            0.4029,
            0.4029,
            0.4035,
            0.4039,
            0.4051,
            0.4047,
            0.4035,
            0.4045,
            0.4061,
            0.407,
            0.4078,
            0.4076,
            0.4083,
            0.41,
            0.41,
            0.4097,
            0.4099,
            0.4094,
            0.4093,
            0.4093,
            0.4096,
            0.4093,
            0.409,
            0.4092,
            0.4082,
            0.4087,
            0.4093,
            0.4089,
            0.4107,
            0.411,
            0.4092,
            0.4118,
            0.4147,
            0.4152,
            0.4167,
            0.4181,
            0.4195,
            0.4225,
            0.4247,
            0.4271,
            0.4293,
            0.4303,
            0.4332,
            0.4346,
            0.4344,
            0.436,
            0.4355,
            0.4341,
            0.4348,
            0.4345,
            0.4316,
            0.4295,
            0.4291,
            0.4275,
            0.4258,
            0.4245,
            0.4208,
            0.4174,
            0.4168,
            0.4163,
            0.4147,
            0.4139,
            0.4132,
            0.4129,
            0.4134,
            0.4138,
            0.415,
            0.4162,
            0.4169,
            0.4193,
            0.422,
            0.4244,
            0.4275,
            0.4295,
            0.4311,
            0.434,
            0.4374,
            0.4401,
            0.4435,
            0.4473,
            0.4493,
            0.4519,
            0.4546,
            0.4554,
            0.457,
            0.4589,
            0.46,
            0.4617,
            0.4619,
            0.46,
            0.459,
            0.4601,
            0.4611,
            0.4612,
            0.4614,
            0.4611,
            0.4607,
            0.4604,
            0.4596,
            0.4597,
            0.4604,
            0.4595,
            0.4569,
            0.4554,
            0.4556,
            0.4546,
            0.4535,
            0.4538,
            0.4532,
            0.4528,
            0.4524,
            0.4518,
            0.4529,
            0.4539,
            0.4546,
            0.454,
            0.4535,
            0.4539,
            0.4548,
            0.4566,
            0.4575,
            0.4575,
            0.459,
            0.4608,
            0.4619,
            0.4625,
            0.4628,
            0.4629,
            0.4619,
            0.4605,
            0.4596,
            0.4578,
            0.457,
            0.4566,
            0.4542,
            0.4524,
            0.4504,
            0.4485,
            0.4473,
            0.4451,
            0.4422,
            0.4401,
            0.4381,
            0.4369,
            0.4367,
            0.4353,
            0.4341,
            0.4346,
            0.4338,
            0.4335,
            0.4355,
            0.4355,
            0.4352,
            0.4367,
            0.4382,
            0.4404,
            0.4431,
            0.4449,
            0.4457,
            0.448,
            0.4521,
            0.4545,
            0.4557,
            0.4583,
            0.461,
            0.4637,
            0.4657,
            0.4668,
            0.4676,
            0.4691,
            0.4718,
            0.4743,
            0.475,
            0.4742,
            0.4735,
            0.4731,
            0.4735,
            0.4742,
            0.4737,
            0.4725,
            0.4722,
            0.4714,
            0.4708,
            0.4706,
            0.4693,
            0.4675,
            0.4657,
            0.465,
            0.465,
            0.4628,
            0.4601,
            0.4594,
            0.4593,
            0.4584,
            0.457,
            0.4569,
            0.4571,
            0.4561,
            0.4549,
            0.4553,
            0.4558,
            0.4551,
            0.4554,
            0.4548,
            0.4528,
            0.4532,
            0.4527,
            0.4488,
            0.4467,
            0.4455,
            0.4431,
            0.441,
            0.4383,
            0.4352,
            0.4343,
            0.4332,
            0.4313,
            0.4315,
            0.4311,
            0.4293,
            0.4297,
            0.4309,
            0.4314,
            0.4334,
            0.4354,
            0.4368,
            0.439,
            0.4414,
            0.4427,
            0.4425,
            0.4405,
            0.4369,
            0.431,
            0.4221,
            0.4109,
            0.3963,
            0.3779,
            0.3553,
            0.3292,
            0.3009,
            0.2696,
            0.2367,
            0.2046,
            0.1728,
            0.1425,
            0.115,
            0.09088,
            0.07045,
            0.0538,
            0.04051,
            0.02979,
            0.02149,
            0.01519,
            0.01032,
            0.006787,
            0.004011,
            0.001769,
            0.001046,
            0.000788,
            0.000983,
            0.00167,
            0.001986,
            0.002299,
            0.002598,
            0.002757,
            0.002767,
            0.002638,
            0.002642,
            0.002632,
            0.002431,
            0.002323,
            0.002213,
            0.00212,
            0.002118,
            0.001946,
            0.001759
        ],
        "wavelength": [
            3.08106,
            3.08289,
            3.08473,
            3.08656,
            3.0884,
            3.09024,
            3.09208,
            3.09393,
            3.09578,
            3.09762,
            3.09948,
            3.10133,
            3.10319,
            3.10504,
            3.1069,
            3.10877,
            3.11063,
            3.1125,
            3.11437,
            3.11624,
            3.11811,
            3.11999,
            3.12187,
            3.12375,
            3.12563,
            3.12752,
            3.1294,
            3.13129,
            3.13319,
            3.13508,
            3.13698,
            3.13888,
            3.14078,
            3.14268,
            3.14459,
            3.14649,
            3.14841,
            3.15032,
            3.15223,
            3.15415,
            3.15607,
            3.15799,
            3.15992,
            3.16184,
            3.16377,
            3.1657,
            3.16764,
            3.16957,
            3.17151,
            3.17345,
            3.1754,
            3.17734,
            3.17929,
            3.18124,
            3.18319,
            3.18515,
            3.18711,
            3.18907,
            3.19103,
            3.19299,
            3.19496,
            3.19693,
            3.1989,
            3.20088,
            3.20286,
            3.20484,
            3.20682,
            3.2088,
            3.21079,
            3.21278,
            3.21477,
            3.21676,
            3.21876,
            3.22076,
            3.22276,
            3.22477,
            3.22677,
            3.22878,
            3.23079,
            3.23281,
            3.23482,
            3.23684,
            3.23887,
            3.24089,
            3.24292,
            3.24495,
            3.24698,
            3.24901,
            3.25105,
            3.25309,
            3.25513,
            3.25718,
            3.25922,
            3.26127,
            3.26332,
            3.26538,
            3.26744,
            3.2695,
            3.27156,
            3.27363,
            3.27569,
            3.27776,
            3.27984,
            3.28191,
            3.28399,
            3.28607,
            3.28816,
            3.29024,
            3.29233,
            3.29442,
            3.29652,
            3.29862,
            3.30071,
            3.30282,
            3.30492,
            3.30703,
            3.30914,
            3.31125,
            3.31337,
            3.31549,
            3.31761,
            3.31973,
            3.32186,
            3.32399,
            3.32612,
            3.32826,
            3.33039,
            3.33253,
            3.33468,
            3.33682,
            3.33897,
            3.34112,
            3.34328,
            3.34543,
            3.34759,
            3.34976,
            3.35192,
            3.35409,
            3.35626,
            3.35843,
            3.36061,
            3.36279,
            3.36497,
            3.36716,
            3.36935,
            3.37154,
            3.37373,
            3.37593,
            3.37813,
            3.38033,
            3.38253,
            3.38474,
            3.38695,
            3.38917,
            3.39138,
            3.3936,
            3.39582,
            3.39805,
            3.40028,
            3.40251,
            3.40474,
            3.40698,
            3.40922,
            3.41146,
            3.41371,
            3.41596,
            3.41821,
            3.42046,
            3.42272,
            3.42498,
            3.42725,
            3.42951,
            3.43178,
            3.43406,
            3.43633,
            3.43861,
            3.44089,
            3.44318,
            3.44546,
            3.44775,
            3.45005,
            3.45235,
            3.45465,
            3.45695,
            3.45926,
            3.46156,
            3.46388,
            3.46619,
            3.46851,
            3.47083,
            3.47316,
            3.47548,
            3.47782,
            3.48015,
            3.48249,
            3.48483,
            3.48717,
            3.48952,
            3.49187,
            3.49422,
            3.49658,
            3.49894,
            3.5013,
            3.50366,
            3.50603,
            3.50841,
            3.51078,
            3.51316,
            3.51554,
            3.51793,
            3.52031,
            3.52271,
            3.5251,
            3.5275,
            3.5299,
            3.5323,
            3.53471,
            3.53712,
            3.53954,
            3.54196,
            3.54438,
            3.5468,
            3.54923,
            3.55166,
            3.55409,
            3.55653,
            3.55897,
            3.56142,
            3.56386,
            3.56632,
            3.56877,
            3.57123,
            3.57369,
            3.57615,
            3.57862,
            3.58109,
            3.58357,
            3.58605,
            3.58853,
            3.59101,
            3.5935,
            3.59599,
            3.59849,
            3.60099,
            3.60349,
            3.606,
            3.60851,
            3.61102,
            3.61354,
            3.61606,
            3.61858,
            3.62111,
            3.62364,
            3.62617,
            3.62871,
            3.63125,
            3.63379,
            3.63634,
            3.63889,
            3.64145,
            3.64401,
            3.64657,
            3.64914,
            3.65171,
            3.65428,
            3.65686,
            3.65944,
            3.66202,
            3.66461,
            3.6672,
            3.6698,
            3.6724,
            3.675,
            3.67761,
            3.68022,
            3.68283,
            3.68545,
            3.68807,
            3.69069,
            3.69332,
            3.69595,
            3.69859,
            3.70123,
            3.70387,
            3.70652,
            3.70917,
            3.71183,
            3.71449,
            3.71715,
            3.71982,
            3.72249,
            3.72516,
            3.72784,
            3.73052,
            3.73321,
            3.7359,
            3.73859,
            3.74129,
            3.74399,
            3.74669,
            3.7494,
            3.75212,
            3.75483,
            3.75755,
            3.76028,
            3.76301,
            3.76574,
            3.76848,
            3.77122,
            3.77396,
            3.77671,
            3.77946,
            3.78222,
            3.78498,
            3.78775,
            3.79051,
            3.79329,
            3.79606,
            3.79884,
            3.80163,
            3.80442,
            3.80721,
            3.81001,
            3.81281,
            3.81562,
            3.81843,
            3.82124,
            3.82406,
            3.82688,
            3.82971,
            3.83254,
            3.83537,
            3.83821,
            3.84105,
            3.8439,
            3.84675,
            3.84961,
            3.85247,
            3.85533,
            3.8582,
            3.86107,
            3.86395,
            3.86683,
            3.86972,
            3.87261,
            3.8755,
            3.8784,
            3.8813,
            3.88421,
            3.88712,
            3.89004,
            3.89296,
            3.89589,
            3.89881,
            3.90175,
            3.90469,
            3.90763,
            3.91058,
            3.91353,
            3.91648,
            3.91944,
            3.92241,
            3.92538,
            3.92835,
            3.93133,
            3.93431,
            3.9373,
            3.94029,
            3.94329,
            3.94629,
            3.94929,
            3.9523,
            3.95532,
            3.95834,
            3.96136,
            3.96439,
            3.96742,
            3.97046,
            3.9735,
            3.97655,
            3.9796,
            3.98266,
            3.98572,
            3.98879,
            3.99186,
            3.99493,
            3.99801,
            4.0011,
            4.00419,
            4.00728,
            4.01038
        ]
    },
    "IRAC 2": {
        "transmittance": [
            0.000829,
            0.000735,
            0.000676,
            0.000758,
            0.000738,
            0.000735,
            0.000749,
            0.000614,
            0.000581,
            0.000596,
            0.000559,
            0.000611,
            0.000609,
            0.000543,
            0.000517,
            0.00045,
            0.000298,
            0.000323,
            0.000395,
            0.000258,
            0.000219,
            0.00021,
            0.000279,
            0.000348,
            0.000235,
            0.000325,
            0.000516,
            0.000541,
            0.000546,
            0.000577,
            0.000384,
            0.000379,
            0.000747,
            0.000844,
            0.000657,
            0.000836,
            0.000961,
            0.000903,
            0.001188,
            0.001183,
            0.001009,
            0.001065,
            0.000944,
            0.001075,
            0.001189,
            0.001147,
            0.001186,
            0.001015,
            0.001059,
            0.001128,
            0.000848,
            0.000788,
            0.000751,
            0.000614,
            0.000561,
            0.000449,
            0.000459,
            0.00038,
            0.000158,
            0.000137,
            0.00014,
            0.000316,
            0.000485,
            0.000982,
            0.001367,
            0.001598,
            0.002326,
            0.003128,
            0.003736,
            0.004613,
            0.005613,
            0.006578,
            0.008,
            0.009744,
            0.0113,
            0.01309,
            0.01527,
            0.01777,
            0.02063,
            0.02374,
            0.02758,
            0.03208,
            0.0371,
            0.04328,
            0.05064,
            0.05899,
            0.06889,
            0.08052,
            0.09426,
            0.1103,
            0.1283,
            0.1482,
            0.1703,
            0.1938,
            0.2188,
            0.2441,
            0.2692,
            0.2934,
            0.3152,
            0.3345,
            0.3512,
            0.3642,
            0.3737,
            0.3795,
            0.3834,
            0.3856,
            0.385,
            0.3831,
            0.3808,
            0.3791,
            0.3754,
            0.371,
            0.367,
            0.3622,
            0.3581,
            0.3546,
            0.3502,
            0.3456,
            0.3413,
            0.3377,
            0.3346,
            0.3315,
            0.3286,
            0.3266,
            0.3252,
            0.3238,
            0.323,
            0.3229,
            0.3236,
            0.3258,
            0.3277,
            0.3299,
            0.3326,
            0.336,
            0.3422,
            0.3481,
            0.3525,
            0.3589,
            0.3659,
            0.3731,
            0.3806,
            0.3882,
            0.3963,
            0.4052,
            0.4146,
            0.4238,
            0.4317,
            0.4381,
            0.4447,
            0.452,
            0.4582,
            0.4638,
            0.4691,
            0.4738,
            0.4782,
            0.4827,
            0.4874,
            0.4898,
            0.4913,
            0.494,
            0.4959,
            0.4966,
            0.4972,
            0.497,
            0.4973,
            0.4967,
            0.4946,
            0.4929,
            0.4912,
            0.4891,
            0.4881,
            0.4856,
            0.4814,
            0.4781,
            0.4757,
            0.4734,
            0.4709,
            0.4683,
            0.4672,
            0.4656,
            0.4635,
            0.4638,
            0.4645,
            0.4643,
            0.4647,
            0.4663,
            0.47,
            0.4731,
            0.4762,
            0.4797,
            0.4821,
            0.4853,
            0.4892,
            0.492,
            0.4946,
            0.4975,
            0.5007,
            0.5039,
            0.5063,
            0.5083,
            0.5101,
            0.5122,
            0.5142,
            0.515,
            0.5155,
            0.5187,
            0.5222,
            0.5231,
            0.5245,
            0.5272,
            0.5292,
            0.5306,
            0.5329,
            0.5361,
            0.5384,
            0.54,
            0.5417,
            0.5433,
            0.5454,
            0.5469,
            0.5466,
            0.5469,
            0.5478,
            0.5479,
            0.5482,
            0.5483,
            0.5467,
            0.5466,
            0.5471,
            0.5447,
            0.5424,
            0.5424,
            0.5425,
            0.5408,
            0.5384,
            0.5376,
            0.536,
            0.5334,
            0.532,
            0.5308,
            0.5277,
            0.5247,
            0.5227,
            0.5202,
            0.5175,
            0.5163,
            0.5142,
            0.5116,
            0.5104,
            0.5087,
            0.5071,
            0.5072,
            0.5071,
            0.5053,
            0.5042,
            0.5038,
            0.5032,
            0.5034,
            0.5032,
            0.5018,
            0.5007,
            0.5,
            0.4984,
            0.4958,
            0.4944,
            0.4934,
            0.4917,
            0.4893,
            0.4865,
            0.4841,
            0.4816,
            0.478,
            0.4753,
            0.4723,
            0.4692,
            0.4699,
            0.471,
            0.4719,
            0.4738,
            0.4745,
            0.4759,
            0.4791,
            0.4819,
            0.4839,
            0.4857,
            0.4884,
            0.4905,
            0.4919,
            0.4938,
            0.4953,
            0.497,
            0.4985,
            0.4987,
            0.4983,
            0.4971,
            0.4954,
            0.4945,
            0.4932,
            0.49,
            0.4864,
            0.4845,
            0.4819,
            0.478,
            0.4749,
            0.4718,
            0.4683,
            0.466,
            0.4634,
            0.4593,
            0.4553,
            0.4521,
            0.4503,
            0.4491,
            0.4471,
            0.4455,
            0.4437,
            0.4419,
            0.4417,
            0.4417,
            0.44,
            0.4394,
            0.4404,
            0.4405,
            0.4399,
            0.4403,
            0.4403,
            0.4399,
            0.4405,
            0.4404,
            0.4404,
            0.4409,
            0.4412,
            0.4429,
            0.4436,
            0.4441,
            0.4451,
            0.4464,
            0.4463,
            0.4444,
            0.4428,
            0.4406,
            0.4364,
            0.4296,
            0.4214,
            0.4136,
            0.405,
            0.3955,
            0.3874,
            0.3807,
            0.3763,
            0.3748,
            0.3752,
            0.3769,
            0.3775,
            0.3747,
            0.3649,
            0.3451,
            0.3119,
            0.2646,
            0.2089,
            0.1539,
            0.1076,
            0.07247,
            0.04756,
            0.03091,
            0.01981,
            0.01245,
            0.007663,
            0.004488,
            0.002474,
            0.001182,
            0.000503,
            0.000261,
            0.000265,
            0.000247,
            0.000254,
            0.000204,
            9.3e-05,
            6e-05,
            7e-06,
            8.8e-05,
            9.7e-05,
            0.000214,
            0.00032,
            0.00032,
            0.000369,
            0.000377,
            0.000329,
            0.00042,
            0.000526,
            0.000526,
            0.000509,
            0.000542,
            0.000541,
            0.00047,
            0.000479,
            0.000516,
            0.000463,
            0.000418,
            0.000426,
            0.000415
        ],
        "wavelength": [
            3.72249,
            3.72516,
            3.72784,
            3.73052,
            3.73321,
            3.7359,
            3.73859,
            3.74129,
            3.74399,
            3.74669,
            3.7494,
            3.75212,
            3.75483,
            3.75755,
            3.76028,
            3.76301,
            3.76574,
            3.76848,
            3.77122,
            3.77396,
            3.77671,
            3.77946,
            3.78222,
            3.78498,
            3.78775,
            3.79051,
            3.79329,
            3.79606,
            3.79884,
            3.80163,
            3.80442,
            3.80721,
            3.81001,
            3.81281,
            3.81562,
            3.81843,
            3.82124,
            3.82406,
            3.82688,
            3.82971,
            3.83254,
            3.83537,
            3.83821,
            3.84105,
            3.8439,
            3.84675,
            3.84961,
            3.85247,
            3.85533,
            3.8582,
            3.86107,
            3.86395,
            3.86683,
            3.86972,
            3.87261,
            3.8755,
            3.8784,
            3.8813,
            3.88421,
            3.88712,
            3.89004,
            3.89296,
            3.89589,
            3.89881,
            3.90175,
            3.90469,
            3.90763,
            3.91058,
            3.91353,
            3.91648,
            3.91944,
            3.92241,
            3.92538,
            3.92835,
            3.93133,
            3.93431,
            3.9373,
            3.94029,
            3.94329,
            3.94629,
            3.94929,
            3.9523,
            3.95532,
            3.95834,
            3.96136,
            3.96439,
            3.96742,
            3.97046,
            3.9735,
            3.97655,
            3.9796,
            3.98266,
            3.98572,
            3.98879,
            3.99186,
            3.99493,
            3.99801,
            4.0011,
            4.00419,
            4.00728,
            4.01038,
            4.01349,
            4.01659,
            4.01971,
            4.02283,
            4.02595,
            4.02908,
            4.03221,
            4.03535,
            4.03849,
            4.04164,
            4.04479,
            4.04795,
            4.05111,
            4.05428,
            4.05745,
            4.06063,
            4.06381,
            4.067,
            4.07019,
            4.07339,
            4.07659,
            4.0798,
            4.08301,
            4.08623,
            4.08945,
            4.09268,
            4.09591,
            4.09915,
            4.10239,
            4.10564,
            4.10889,
            4.11215,
            4.11542,
            4.11868,
            4.12196,
            4.12524,
            4.12852,
            4.13181,
            4.13511,
            4.13841,
            4.14171,
            4.14502,
            4.14834,
            4.15166,
            4.15499,
            4.15832,
            4.16166,
            4.165,
            4.16835,
            4.1717,
            4.17506,
            4.17842,
            4.18179,
            4.18517,
            4.18855,
            4.19193,
            4.19533,
            4.19872,
            4.20213,
            4.20553,
            4.20895,
            4.21237,
            4.21579,
            4.21922,
            4.22266,
            4.2261,
            4.22955,
            4.233,
            4.23646,
            4.23992,
            4.24339,
            4.24687,
            4.25035,
            4.25383,
            4.25733,
            4.26082,
            4.26433,
            4.26784,
            4.27135,
            4.27487,
            4.2784,
            4.28193,
            4.28547,
            4.28902,
            4.29257,
            4.29613,
            4.29969,
            4.30326,
            4.30683,
            4.31041,
            4.314,
            4.31759,
            4.32119,
            4.32479,
            4.3284,
            4.33202,
            4.33564,
            4.33927,
            4.3429,
            4.34654,
            4.35019,
            4.35384,
            4.3575,
            4.36116,
            4.36483,
            4.36851,
            4.37219,
            4.37588,
            4.37958,
            4.38328,
            4.38699,
            4.39071,
            4.39443,
            4.39815,
            4.40189,
            4.40563,
            4.40937,
            4.41313,
            4.41689,
            4.42065,
            4.42442,
            4.4282,
            4.43199,
            4.43578,
            4.43957,
            4.44338,
            4.44719,
            4.45101,
            4.45483,
            4.45866,
            4.4625,
            4.46634,
            4.47019,
            4.47405,
            4.47791,
            4.48178,
            4.48566,
            4.48954,
            4.49343,
            4.49733,
            4.50124,
            4.50515,
            4.50906,
            4.51299,
            4.51692,
            4.52086,
            4.5248,
            4.52875,
            4.53271,
            4.53668,
            4.54065,
            4.54463,
            4.54862,
            4.55261,
            4.55661,
            4.56062,
            4.56463,
            4.56865,
            4.57268,
            4.57672,
            4.58076,
            4.58481,
            4.58887,
            4.59293,
            4.59701,
            4.60109,
            4.60517,
            4.60927,
            4.61337,
            4.61747,
            4.62159,
            4.62571,
            4.62984,
            4.63398,
            4.63812,
            4.64228,
            4.64644,
            4.6506,
            4.65478,
            4.65896,
            4.66315,
            4.66735,
            4.67155,
            4.67576,
            4.67998,
            4.68421,
            4.68845,
            4.69269,
            4.69694,
            4.7012,
            4.70547,
            4.70974,
            4.71402,
            4.71831,
            4.72261,
            4.72691,
            4.73123,
            4.73555,
            4.73987,
            4.74421,
            4.74856,
            4.75291,
            4.75727,
            4.76164,
            4.76601,
            4.7704,
            4.77479,
            4.77919,
            4.7836,
            4.78802,
            4.79244,
            4.79688,
            4.80132,
            4.80577,
            4.81023,
            4.81469,
            4.81917,
            4.82365,
            4.82814,
            4.83264,
            4.83715,
            4.84166,
            4.84619,
            4.85072,
            4.85527,
            4.85982,
            4.86437,
            4.86894,
            4.87352,
            4.8781,
            4.8827,
            4.8873,
            4.89191,
            4.89653,
            4.90116,
            4.90579,
            4.91044,
            4.91509,
            4.91976,
            4.92443,
            4.92911,
            4.9338,
            4.9385,
            4.94321,
            4.94792,
            4.95265,
            4.95738,
            4.96213,
            4.96688,
            4.97164,
            4.97641,
            4.98119,
            4.98598,
            4.99078,
            4.99559,
            5.00041,
            5.00523,
            5.01007,
            5.01492,
            5.01977,
            5.02463,
            5.02951,
            5.03439,
            5.03928,
            5.04419,
            5.0491,
            5.05402,
            5.05895,
            5.06389,
            5.06884,
            5.0738,
            5.07877,
            5.08375,
            5.08874,
            5.09374,
            5.09874,
            5.10376,
            5.10879,
            5.11383,
            5.11888,
            5.12394,
            5.129,
            5.13408,
            5.13917,
            5.14427,
            5.14938,
            5.1545,
            5.15963,
            5.16476,
            5.16991,
            5.17507,
            5.18024,
            5.18542,
            5.19061,
            5.19581,
            5.20103,
            5.20625,
            5.21148,
            5.21672,
            5.22198
        ]
    }
}